File: exampleFiles/QCM_RCV_Cu_calibration.DTA
EXPLAIN
TAG	CVEQCM
TITLE	LABEL	Cyclic Voltammetry	Test &Identifier
DATE	LABEL	02/12/2016	Date
TIME	LABEL	11:02:38	Time
APPLICATION	LABEL	Resonator	Data &Acquisition Application
NOTES	NOTES	0	&Notes...
PSTAT	PSTAT	IFC1000-03004	Potentiostat
VINIT	POTEN	-3,00000E-001	F	Initial &E (V)
VLIMIT1	POTEN	-7,00000E-001	F	Scan Limit &1 (V)
VLIMIT2	POTEN	0,00000E+000	F	Scan Limit &2 (V)
VFINAL	POTEN	-3,00000E-001	F	Final &E (V)
SCANRATE	QUANT	5,00000E+001	&Scan Rate (mV/s)
STEPSIZE	QUANT	2,00000E+000	St&ep Size (mV)
CYCLES	IQUANT	5	C&ycles (#)
IMODE	SELECTOR	1	I/E Range &Mode
IRANGE	QUANT	3,00000E+001	&Max Current (mA)
AREA	QUANT	2,09000E-001	Electrode &Area (cm^2)
AREAOVERLAP	QUANT	2,05000E-001	Area of &Overlap (cm^2)
CONDIT	TWOPARAM	F	0,00000E+000	0,00000E+000	Conditionin&g	Time(s)	E(V)
DELAY	TWOPARAM	F	3,00000E+001	0,00000E+000	Init. De&lay	Time(s)	Stab.(mV/s)
EQDELAY	QUANT	5,00000E+000	Equil. &Time (s)
IRCOMP	SELECTOR	0	IRCom&p
PFCOR	QUANT	0,00000E+000	PF Corr. (ohm)
SAMPLINGMODE	SELECTOR	0	Sampling &Mode
EOC	QUANT	0	Open Circuit (V)
PSTATMODEL	IQUANT	48	PstatModel
PSTATSECTION	LABEL	IFC1000-03004	Pstat Section
PSTATSERIALNO	LABEL	03004	Pstat Serial Number
CTRLMODE	IQUANT	1	Control Mode
IESTAB	IQUANT	2	I/E Stability
CASPEED	IQUANT	4	Control Amp Speed
CONVENTION	IQUANT	1	Current Convention
ICHRANGE	IQUANT	2	Ich Range
ICHRANGEMODE	TOGGLE	F	Ich Auto Range
ICHOFFSETENABLE	TOGGLE	F	Ich Offset Enable
ICHOFFSET	QUANT	0,000000	Ich Offset (V)
ICHFILTER	IQUANT	3	Ich Filter
VCHRANGE	IQUANT	2	Vch Range
VCHRANGEMODE	TOGGLE	F	Vch Auto Range
VCHOFFSETENABLE	TOGGLE	F	Vch Offset Enable
VCHOFFSET	QUANT	0,000000	Vch Offset (V)
VCHFILTER	IQUANT	3	Vch Filter
ACHRANGE	IQUANT	2	Ach Range
IERANGELOWERLIMIT	IQUANT	4	I/E Range Lower Limit
IERANGEMODE	TOGGLE	F	I/E AutoRange
IERANGE	IQUANT	11	I/E Range
POSFEEDENABLE	TOGGLE	F	Positive Feedback IR Comp
POSFEEDRESISTANCE	QUANT	0,000000	Positive Feedback Resistance (ohm)
DCCALDATE	LABEL	30.10.2015	DC Calibration Date
ACCALDATE	LABEL	30.10.2015	AC Calibration Date
FRAMEWORKVERSION	QUANT	6.24	Framework Version
CURVE1	TABLE
	Pt	T	Q	Vf	Im	Vu	Sig	ACH	IERange	Over
	#	s	C	V vs. Ref.	A	V	V	V	#	bits
	0	0,040000	7,77691E-006	-3,00559E-001	-2,14826E-004	0,00000E+000	-2,99997E-001	0,00000E+000	11	...........
	2	0,120000	-2,93513E-006	-3,05091E-001	-1,17671E-004	0,00000E+000	-3,03996E-001	0,00000E+000	11	...........
	4	0,200000	-1,07249E-005	-3,08337E-001	-9,23987E-005	0,00000E+000	-3,07995E-001	0,00000E+000	11	...........
	6	0,280000	-1,76725E-005	-3,12191E-001	-8,57470E-005	0,00000E+000	-3,12006E-001	0,00000E+000	11	...........
	8	0,360000	-2,47803E-005	-3,16840E-001	-9,04734E-005	0,00000E+000	-3,16005E-001	0,00000E+000	11	...........
	10	0,440000	-3,27263E-005	-3,21196E-001	-1,02491E-004	0,00000E+000	-3,20004E-001	0,00000E+000	11	...........
	12	0,520000	-4,17866E-005	-3,24171E-001	-1,17316E-004	0,00000E+000	-3,24002E-001	0,00000E+000	11	...........
	14	0,600000	-5,23040E-005	-3,28693E-001	-1,36576E-004	0,00000E+000	-3,28001E-001	0,00000E+000	11	...........
	16	0,680000	-6,43503E-005	-3,33185E-001	-1,55503E-004	0,00000E+000	-3,32000E-001	0,00000E+000	11	...........
	18	0,760000	-7,77288E-005	-3,36258E-001	-1,70259E-004	0,00000E+000	-3,35999E-001	0,00000E+000	11	...........
	20	0,840000	-9,23957E-005	-3,40158E-001	-1,87573E-004	0,00000E+000	-3,39998E-001	0,00000E+000	11	...........
	22	0,920000	-1,08496E-004	-3,44870E-001	-2,05609E-004	0,00000E+000	-3,43996E-001	0,00000E+000	11	...........
	24	1,000000	-1,25977E-004	-3,48942E-001	-2,22131E-004	0,00000E+000	-3,47995E-001	0,00000E+000	11	...........
	26	1,080000	-1,44587E-004	-3,52154E-001	-2,36372E-004	0,00000E+000	-3,51994E-001	0,00000E+000	11	...........
	28	1,160000	-1,64524E-004	-3,56735E-001	-2,53930E-004	0,00000E+000	-3,56005E-001	0,00000E+000	11	...........
	30	1,240000	-1,85841E-004	-3,61284E-001	-2,70785E-004	0,00000E+000	-3,60004E-001	0,00000E+000	11	...........
	32	1,320000	-2,08259E-004	-3,64190E-001	-2,83754E-004	0,00000E+000	-3,64003E-001	0,00000E+000	11	...........
	34	1,400000	-2,31812E-004	-3,68158E-001	-2,98086E-004	0,00000E+000	-3,68002E-001	0,00000E+000	11	...........
	36	1,480000	-2,56736E-004	-3,73036E-001	-3,15463E-004	0,00000E+000	-3,72001E-001	0,00000E+000	11	...........
	38	1,560000	-2,82768E-004	-3,76427E-001	-3,27890E-004	0,00000E+000	-3,75999E-001	0,00000E+000	11	...........
	40	1,640000	-3,09733E-004	-3,80155E-001	-3,40346E-004	0,00000E+000	-3,79998E-001	0,00000E+000	11	...........
	42	1,720000	-3,37963E-004	-3,84843E-001	-3,56492E-004	0,00000E+000	-3,83997E-001	0,00000E+000	11	...........
	44	1,800000	-3,67325E-004	-3,89140E-001	-3,70240E-004	0,00000E+000	-3,87996E-001	0,00000E+000	11	...........
	46	1,880000	-3,97462E-004	-3,92162E-001	-3,79220E-004	0,00000E+000	-3,91995E-001	0,00000E+000	11	...........
	48	1,960000	-4,28603E-004	-3,96700E-001	-3,93059E-004	0,00000E+000	-3,96006E-001	0,00000E+000	11	...........
	50	2,040000	-4,60802E-004	-4,01203E-001	-4,05883E-004	0,00000E+000	-4,00005E-001	0,00000E+000	11	...........
	52	2,120000	-4,93688E-004	-4,04245E-001	-4,12263E-004	0,00000E+000	-4,04003E-001	0,00000E+000	11	...........
	54	2,200000	-5,27193E-004	-4,08160E-001	-4,20903E-004	0,00000E+000	-4,08002E-001	0,00000E+000	11	...........
	56	2,280000	-5,61618E-004	-4,12912E-001	-4,32698E-004	0,00000E+000	-4,12001E-001	0,00000E+000	11	...........
	58	2,360000	-5,96741E-004	-4,16770E-001	-4,40128E-004	0,00000E+000	-4,16000E-001	0,00000E+000	11	...........
	60	2,440000	-6,32247E-004	-4,20146E-001	-4,45633E-004	0,00000E+000	-4,19999E-001	0,00000E+000	11	...........
	62	2,520000	-6,68480E-004	-4,24760E-001	-4,55968E-004	0,00000E+000	-4,23997E-001	0,00000E+000	11	...........
	64	2,600000	-7,05484E-004	-4,29282E-001	-4,64719E-004	0,00000E+000	-4,27996E-001	0,00000E+000	11	...........
	66	2,680000	-7,42831E-004	-4,32138E-001	-4,68271E-004	0,00000E+000	-4,31995E-001	0,00000E+000	11	...........
	68	2,760000	-7,80802E-004	-4,36491E-001	-4,77126E-004	0,00000E+000	-4,35994E-001	0,00000E+000	11	...........
	70	2,840000	-8,19515E-004	-4,41124E-001	-4,86481E-004	0,00000E+000	-4,40005E-001	0,00000E+000	11	...........
	72	2,920000	-8,58689E-004	-4,44292E-001	-4,89866E-004	0,00000E+000	-4,44004E-001	0,00000E+000	11	...........
	74	3,000000	-8,98346E-004	-4,48176E-001	-4,97790E-004	0,00000E+000	-4,48003E-001	0,00000E+000	11	...........
	76	3,080000	-9,38853E-004	-4,52831E-001	-5,08209E-004	0,00000E+000	-4,52002E-001	0,00000E+000	11	...........
	78	3,160000	-9,80062E-004	-4,57093E-001	-5,17196E-004	0,00000E+000	-4,56000E-001	0,00000E+000	11	...........
	80	3,240000	-1,02162E-003	-4,60154E-001	-5,21359E-004	0,00000E+000	-4,59999E-001	0,00000E+000	11	...........
	82	3,320000	-1,06397E-003	-4,64718E-001	-5,33043E-004	0,00000E+000	-4,63998E-001	0,00000E+000	11	...........
	84	3,400000	-1,10721E-003	-4,69230E-001	-5,43476E-004	0,00000E+000	-4,67997E-001	0,00000E+000	11	...........
	86	3,480000	-1,15097E-003	-4,72196E-001	-5,47924E-004	0,00000E+000	-4,71996E-001	0,00000E+000	11	...........
	88	3,560000	-1,19531E-003	-4,76168E-001	-5,56675E-004	0,00000E+000	-4,75994E-001	0,00000E+000	11	...........
	90	3,640000	-1,24061E-003	-4,80993E-001	-5,69054E-004	0,00000E+000	-4,80006E-001	0,00000E+000	11	...........
	92	3,720000	-1,28655E-003	-4,84461E-001	-5,74357E-004	0,00000E+000	-4,84004E-001	0,00000E+000	11	...........
	94	3,800000	-1,33291E-003	-4,88162E-001	-5,81690E-004	0,00000E+000	-4,88003E-001	0,00000E+000	11	...........
	96	3,880000	-1,38008E-003	-4,92816E-001	-5,92241E-004	0,00000E+000	-4,92002E-001	0,00000E+000	11	...........
	98	3,960000	-1,42796E-003	-4,97128E-001	-6,00380E-004	0,00000E+000	-4,96001E-001	0,00000E+000	11	...........
	100	4,040000	-1,47601E-003	-5,00149E-001	-6,02062E-004	0,00000E+000	-5,00000E-001	0,00000E+000	11	...........
	102	4,120000	-1,52468E-003	-5,04657E-001	-6,11299E-004	0,00000E+000	-5,03999E-001	0,00000E+000	11	...........
	104	4,200000	-1,57387E-003	-5,09142E-001	-6,16220E-004	0,00000E+000	-5,07997E-001	0,00000E+000	11	...........
	106	4,280000	-1,62319E-003	-5,12228E-001	-6,15601E-004	0,00000E+000	-5,11996E-001	0,00000E+000	11	...........
	108	4,360000	-1,67264E-003	-5,16142E-001	-6,18736E-004	0,00000E+000	-5,15995E-001	0,00000E+000	11	...........
	110	4,440000	-1,72236E-003	-5,20713E-001	-6,23435E-004	0,00000E+000	-5,20006E-001	0,00000E+000	11	...........
	112	4,520000	-1,77239E-003	-5,25285E-001	-6,26138E-004	0,00000E+000	-5,24005E-001	0,00000E+000	11	...........
	114	4,600000	-1,82211E-003	-5,28159E-001	-6,20495E-004	0,00000E+000	-5,28004E-001	0,00000E+000	11	...........
	116	4,680000	-1,87173E-003	-5,32151E-001	-6,20064E-004	0,00000E+000	-5,32003E-001	0,00000E+000	11	...........
	118	4,760000	-1,92139E-003	-5,36920E-001	-6,20258E-004	0,00000E+000	-5,36001E-001	0,00000E+000	11	...........
	120	4,840000	-1,97082E-003	-5,40694E-001	-6,15595E-004	0,00000E+000	-5,40000E-001	0,00000E+000	11	...........
	122	4,920000	-2,01973E-003	-5,44129E-001	-6,11014E-004	0,00000E+000	-5,43999E-001	0,00000E+000	11	...........
	124	5,000000	-2,06846E-003	-5,48666E-001	-6,08985E-004	0,00000E+000	-5,47998E-001	0,00000E+000	11	...........
	126	5,080000	-2,11691E-003	-5,53199E-001	-6,04786E-004	0,00000E+000	-5,51997E-001	0,00000E+000	11	...........
	128	5,160000	-2,16471E-003	-5,56154E-001	-5,95327E-004	0,00000E+000	-5,55995E-001	0,00000E+000	11	...........
	130	5,240000	-2,21200E-003	-5,60119E-001	-5,89711E-004	0,00000E+000	-5,59994E-001	0,00000E+000	11	...........
	132	5,320000	-2,25898E-003	-5,64863E-001	-5,85429E-004	0,00000E+000	-5,64005E-001	0,00000E+000	11	...........
	134	5,400000	-2,30539E-003	-5,68841E-001	-5,77234E-004	0,00000E+000	-5,68004E-001	0,00000E+000	11	...........
	136	5,480000	-2,35105E-003	-5,72106E-001	-5,69248E-004	0,00000E+000	-5,72003E-001	0,00000E+000	11	...........
	138	5,560000	-2,39631E-003	-5,76683E-001	-5,64981E-004	0,00000E+000	-5,76002E-001	0,00000E+000	11	...........
	140	5,640000	-2,44108E-003	-5,81178E-001	-5,58378E-004	0,00000E+000	-5,80001E-001	0,00000E+000	11	...........
	142	5,720000	-2,48515E-003	-5,84151E-001	-5,48702E-004	0,00000E+000	-5,84000E-001	0,00000E+000	11	...........
	144	5,800000	-2,52870E-003	-5,88102E-001	-5,42454E-004	0,00000E+000	-5,87998E-001	0,00000E+000	11	...........
	146	5,880000	-2,57180E-003	-5,92823E-001	-5,36761E-004	0,00000E+000	-5,91997E-001	0,00000E+000	11	...........
	148	5,960000	-2,61431E-003	-5,96876E-001	-5,29095E-004	0,00000E+000	-5,95996E-001	0,00000E+000	11	...........
	150	6,040000	-2,65617E-003	-6,00097E-001	-5,21755E-004	0,00000E+000	-5,99995E-001	0,00000E+000	11	...........
	152	6,120000	-2,69760E-003	-6,04542E-001	-5,17029E-004	0,00000E+000	-6,04006E-001	0,00000E+000	11	...........
	154	6,200000	-2,73853E-003	-6,09137E-001	-5,09911E-004	0,00000E+000	-6,08005E-001	0,00000E+000	11	...........
	156	6,280000	-2,77887E-003	-6,12165E-001	-5,02460E-004	0,00000E+000	-6,12004E-001	0,00000E+000	11	...........
	158	6,360000	-2,81870E-003	-6,16127E-001	-4,96351E-004	0,00000E+000	-6,16002E-001	0,00000E+000	11	...........
	160	6,440000	-2,85804E-003	-6,20699E-001	-4,90373E-004	0,00000E+000	-6,20001E-001	0,00000E+000	11	...........
	162	6,520000	-2,89694E-003	-6,25218E-001	-4,85021E-004	0,00000E+000	-6,24000E-001	0,00000E+000	11	...........
	164	6,600000	-2,93528E-003	-6,28113E-001	-4,78071E-004	0,00000E+000	-6,27999E-001	0,00000E+000	11	...........
	166	6,680000	-2,97320E-003	-6,32102E-001	-4,72601E-004	0,00000E+000	-6,31998E-001	0,00000E+000	11	...........
	168	6,760000	-3,01072E-003	-6,36906E-001	-4,67708E-004	0,00000E+000	-6,35996E-001	0,00000E+000	11	...........
	170	6,840000	-3,04777E-003	-6,40450E-001	-4,60868E-004	0,00000E+000	-6,39995E-001	0,00000E+000	11	...........
	172	6,920000	-3,08440E-003	-6,44103E-001	-4,56531E-004	0,00000E+000	-6,43994E-001	0,00000E+000	11	...........
	174	7,000000	-3,12064E-003	-6,48670E-001	-4,51958E-004	0,00000E+000	-6,48005E-001	0,00000E+000	11	...........
	176	7,080000	-3,15650E-003	-6,53218E-001	-4,47217E-004	0,00000E+000	-6,52004E-001	0,00000E+000	11	...........
	178	7,160000	-3,19190E-003	-6,56122E-001	-4,41240E-004	0,00000E+000	-6,56003E-001	0,00000E+000	11	...........
	180	7,240000	-3,22697E-003	-6,60122E-001	-4,37327E-004	0,00000E+000	-6,60002E-001	0,00000E+000	11	...........
	182	7,320000	-3,26172E-003	-6,64872E-001	-4,33483E-004	0,00000E+000	-6,64001E-001	0,00000E+000	11	...........
	184	7,400000	-3,29606E-003	-6,68605E-001	-4,27700E-004	0,00000E+000	-6,67999E-001	0,00000E+000	11	...........
	186	7,480000	-3,33002E-003	-6,72109E-001	-4,23905E-004	0,00000E+000	-6,71998E-001	0,00000E+000	11	...........
	188	7,560000	-3,36373E-003	-6,76692E-001	-4,20541E-004	0,00000E+000	-6,75997E-001	0,00000E+000	11	...........
	190	7,640000	-3,39711E-003	-6,81229E-001	-4,16559E-004	0,00000E+000	-6,79996E-001	0,00000E+000	11	...........
	192	7,720000	-3,43015E-003	-6,84128E-001	-4,12360E-004	0,00000E+000	-6,83995E-001	0,00000E+000	11	...........
	194	7,800000	-3,46295E-003	-6,88221E-001	-4,09386E-004	0,00000E+000	-6,88006E-001	0,00000E+000	11	...........
	196	7,880000	-3,49549E-003	-6,93132E-001	-4,05903E-004	0,00000E+000	-6,92005E-001	0,00000E+000	11	...........
	198	7,960000	-3,52767E-003	-6,96213E-001	-4,00941E-004	0,00000E+000	-6,96003E-001	0,00000E+000	11	...........
	200	8,040000	-3,55952E-003	-7,00135E-001	-3,97472E-004	0,00000E+000	-7,00002E-001	0,00000E+000	11	...........
	202	8,120000	-3,59089E-003	-6,96881E-001	-3,90876E-004	0,00000E+000	-6,96003E-001	0,00000E+000	11	...........
	204	8,200000	-3,62181E-003	-6,92716E-001	-3,84586E-004	0,00000E+000	-6,92005E-001	0,00000E+000	11	...........
	206	8,280000	-3,65227E-003	-6,88129E-001	-3,79491E-004	0,00000E+000	-6,88006E-001	0,00000E+000	11	...........
	208	8,360000	-3,68233E-003	-6,84767E-001	-3,74654E-004	0,00000E+000	-6,83995E-001	0,00000E+000	11	...........
	210	8,440000	-3,71207E-003	-6,81154E-001	-3,70191E-004	0,00000E+000	-6,79996E-001	0,00000E+000	11	...........
	212	8,520000	-3,74141E-003	-6,76113E-001	-3,65465E-004	0,00000E+000	-6,75997E-001	0,00000E+000	11	...........
	214	8,599999	-3,77042E-003	-6,72717E-001	-3,61677E-004	0,00000E+000	-6,71998E-001	0,00000E+000	11	...........
	216	8,679999	-3,79915E-003	-6,69251E-001	-3,57952E-004	0,00000E+000	-6,67999E-001	0,00000E+000	11	...........
	218	8,760000	-3,82747E-003	-6,64145E-001	-3,53072E-004	0,00000E+000	-6,64001E-001	0,00000E+000	11	...........
	220	8,840000	-3,85550E-003	-6,60321E-001	-3,49347E-004	0,00000E+000	-6,60002E-001	0,00000E+000	11	...........
	222	8,920000	-3,88328E-003	-6,57173E-001	-3,46226E-004	0,00000E+000	-6,56003E-001	0,00000E+000	11	...........
	224	9,000000	-3,91070E-003	-6,52181E-001	-3,42174E-004	0,00000E+000	-6,52004E-001	0,00000E+000	11	...........
	226	9,080000	-3,93788E-003	-6,48153E-001	-3,38643E-004	0,00000E+000	-6,48005E-001	0,00000E+000	11	...........
	228	9,160000	-3,96482E-003	-6,45043E-001	-3,35988E-004	0,00000E+000	-6,43994E-001	0,00000E+000	11	...........
	230	9,240000	-3,99141E-003	-6,40305E-001	-3,31088E-004	0,00000E+000	-6,39995E-001	0,00000E+000	11	...........
	232	9,320000	-4,01776E-003	-6,36136E-001	-3,28551E-004	0,00000E+000	-6,35996E-001	0,00000E+000	11	...........
	234	9,400000	-4,04389E-003	-6,32944E-001	-3,25791E-004	0,00000E+000	-6,31998E-001	0,00000E+000	11	...........
	236	9,480000	-4,06971E-003	-6,28525E-001	-3,21517E-004	0,00000E+000	-6,27999E-001	0,00000E+000	11	...........
	238	9,559999	-4,09527E-003	-6,24138E-001	-3,18424E-004	0,00000E+000	-6,24000E-001	0,00000E+000	11	...........
	240	9,639999	-4,12060E-003	-6,20872E-001	-3,15449E-004	0,00000E+000	-6,20001E-001	0,00000E+000	11	...........
	242	9,719999	-4,14556E-003	-6,16854E-001	-3,11035E-004	0,00000E+000	-6,16002E-001	0,00000E+000	11	...........
	244	9,800000	-4,17026E-003	-6,12148E-001	-3,08199E-004	0,00000E+000	-6,12004E-001	0,00000E+000	11	...........
	246	9,880000	-4,19470E-003	-6,08809E-001	-3,04627E-004	0,00000E+000	-6,08005E-001	0,00000E+000	11	...........
	248	9,960000	-4,21889E-003	-6,05210E-001	-3,01576E-004	0,00000E+000	-6,04006E-001	0,00000E+000	11	...........
	250	10,040000	-4,24281E-003	-6,00136E-001	-2,98239E-004	0,00000E+000	-5,99995E-001	0,00000E+000	11	...........
	252	10,120000	-4,26650E-003	-5,96737E-001	-2,95487E-004	0,00000E+000	-5,95996E-001	0,00000E+000	11	...........
	254	10,200000	-4,28997E-003	-5,93280E-001	-2,92741E-004	0,00000E+000	-5,91997E-001	0,00000E+000	11	...........
	256	10,280000	-4,31309E-003	-5,88159E-001	-2,88703E-004	0,00000E+000	-5,87998E-001	0,00000E+000	11	...........
	258	10,360000	-4,33596E-003	-5,84267E-001	-2,85089E-004	0,00000E+000	-5,84000E-001	0,00000E+000	11	...........
	260	10,440000	-4,35862E-003	-5,81200E-001	-2,82468E-004	0,00000E+000	-5,80001E-001	0,00000E+000	11	...........
	262	10,520000	-4,38097E-003	-5,76197E-001	-2,78416E-004	0,00000E+000	-5,76002E-001	0,00000E+000	11	...........
	264	10,599999	-4,40308E-003	-5,72167E-001	-2,75330E-004	0,00000E+000	-5,72003E-001	0,00000E+000	11	...........
	266	10,679999	-4,42497E-003	-5,69084E-001	-2,72793E-004	0,00000E+000	-5,68004E-001	0,00000E+000	11	...........
	268	10,760000	-4,44654E-003	-5,64343E-001	-2,67921E-004	0,00000E+000	-5,64005E-001	0,00000E+000	11	...........
	270	10,840000	-4,46775E-003	-5,60159E-001	-2,64189E-004	0,00000E+000	-5,59994E-001	0,00000E+000	11	...........
	272	10,920000	-4,48880E-003	-5,56899E-001	-2,62201E-004	0,00000E+000	-5,55995E-001	0,00000E+000	11	...........
	274	11,000000	-4,50952E-003	-5,52736E-001	-2,57467E-004	0,00000E+000	-5,51997E-001	0,00000E+000	11	...........
	276	11,080000	-4,52992E-003	-5,48151E-001	-2,54374E-004	0,00000E+000	-5,47998E-001	0,00000E+000	11	...........
	278	11,160000	-4,55008E-003	-5,44771E-001	-2,51393E-004	0,00000E+000	-5,43999E-001	0,00000E+000	11	...........
	280	11,240000	-4,56998E-003	-5,41281E-001	-2,47688E-004	0,00000E+000	-5,40000E-001	0,00000E+000	11	...........
	282	11,320000	-4,58946E-003	-5,36149E-001	-2,42614E-004	0,00000E+000	-5,36001E-001	0,00000E+000	11	...........
	284	11,400000	-4,60872E-003	-5,32672E-001	-2,40147E-004	0,00000E+000	-5,32003E-001	0,00000E+000	11	...........
	286	11,480000	-4,62771E-003	-5,29177E-001	-2,36706E-004	0,00000E+000	-5,28004E-001	0,00000E+000	11	...........
	288	11,559999	-4,64634E-003	-5,24234E-001	-2,31709E-004	0,00000E+000	-5,24005E-001	0,00000E+000	11	...........
	290	11,639999	-4,66467E-003	-5,20177E-001	-2,28046E-004	0,00000E+000	-5,20006E-001	0,00000E+000	11	...........
	292	11,719999	-4,68276E-003	-5,16963E-001	-2,25259E-004	0,00000E+000	-5,15995E-001	0,00000E+000	11	...........
	294	11,800000	-4,70051E-003	-5,12583E-001	-2,19761E-004	0,00000E+000	-5,11996E-001	0,00000E+000	11	...........
	296	11,880000	-4,71783E-003	-5,08144E-001	-2,15229E-004	0,00000E+000	-5,07997E-001	0,00000E+000	11	...........
	298	11,960000	-4,73486E-003	-5,04796E-001	-2,12337E-004	0,00000E+000	-5,03999E-001	0,00000E+000	11	...........
	300	12,040000	-4,75164E-003	-5,01203E-001	-2,08695E-004	0,00000E+000	-5,00000E-001	0,00000E+000	11	...........
	302	12,120000	-4,76795E-003	-4,96139E-001	-2,02683E-004	0,00000E+000	-4,96001E-001	0,00000E+000	11	...........
	304	12,200000	-4,78399E-003	-4,92694E-001	-1,99722E-004	0,00000E+000	-4,92002E-001	0,00000E+000	11	...........
	306	12,280000	-4,79971E-003	-4,89199E-001	-1,95767E-004	0,00000E+000	-4,88003E-001	0,00000E+000	11	...........
	308	12,360000	-4,81498E-003	-4,84208E-001	-1,89088E-004	0,00000E+000	-4,84004E-001	0,00000E+000	11	...........
	310	12,440000	-4,82985E-003	-4,80158E-001	-1,84931E-004	0,00000E+000	-4,80006E-001	0,00000E+000	11	...........
	312	12,520000	-4,84445E-003	-4,76962E-001	-1,81748E-004	0,00000E+000	-4,75994E-001	0,00000E+000	11	...........
	314	12,599999	-4,85874E-003	-4,72553E-001	-1,77098E-004	0,00000E+000	-4,71996E-001	0,00000E+000	11	...........
	316	12,679999	-4,87257E-003	-4,68163E-001	-1,72080E-004	0,00000E+000	-4,67997E-001	0,00000E+000	11	...........
	318	12,759999	-4,88608E-003	-4,64828E-001	-1,68208E-004	0,00000E+000	-4,63998E-001	0,00000E+000	11	...........
	320	12,840000	-4,89926E-003	-4,61169E-001	-1,63246E-004	0,00000E+000	-4,59999E-001	0,00000E+000	11	...........
	322	12,920000	-4,91200E-003	-4,56171E-001	-1,57880E-004	0,00000E+000	-4,56000E-001	0,00000E+000	11	...........
	324	13,000000	-4,92438E-003	-4,52718E-001	-1,54147E-004	0,00000E+000	-4,52002E-001	0,00000E+000	11	...........
	326	13,080000	-4,93645E-003	-4,49263E-001	-1,49824E-004	0,00000E+000	-4,48003E-001	0,00000E+000	11	...........
	328	13,160000	-4,94813E-003	-4,44206E-001	-1,44514E-004	0,00000E+000	-4,44004E-001	0,00000E+000	11	...........
	330	13,240000	-4,95939E-003	-4,40185E-001	-1,39593E-004	0,00000E+000	-4,40005E-001	0,00000E+000	11	...........
	332	13,320000	-4,97038E-003	-4,37044E-001	-1,35993E-004	0,00000E+000	-4,35994E-001	0,00000E+000	11	...........
	334	13,400000	-4,98100E-003	-4,32427E-001	-1,30787E-004	0,00000E+000	-4,31995E-001	0,00000E+000	11	...........
	336	13,480000	-4,99117E-003	-4,28168E-001	-1,26387E-004	0,00000E+000	-4,27996E-001	0,00000E+000	11	...........
	338	13,559999	-5,00104E-003	-4,24847E-001	-1,22168E-004	0,00000E+000	-4,23997E-001	0,00000E+000	11	...........
	340	13,639999	-5,01054E-003	-4,21074E-001	-1,17594E-004	0,00000E+000	-4,19999E-001	0,00000E+000	11	...........
	342	13,719999	-5,01962E-003	-4,16170E-001	-1,12291E-004	0,00000E+000	-4,16000E-001	0,00000E+000	11	...........
	344	13,799999	-5,02842E-003	-4,12737E-001	-1,09247E-004	0,00000E+000	-4,12001E-001	0,00000E+000	11	...........
	346	13,880000	-5,03695E-003	-4,09272E-001	-1,05848E-004	0,00000E+000	-4,08002E-001	0,00000E+000	11	...........
	348	13,960000	-5,04512E-003	-4,04222E-001	-1,00997E-004	0,00000E+000	-4,04003E-001	0,00000E+000	11	...........
	350	14,040000	-5,05293E-003	-4,00195E-001	-9,65204E-005	0,00000E+000	-4,00005E-001	0,00000E+000	11	...........
	352	14,120000	-5,06052E-003	-3,97067E-001	-9,43727E-005	0,00000E+000	-3,96006E-001	0,00000E+000	11	...........
	354	14,200000	-5,06780E-003	-3,92467E-001	-8,97714E-005	0,00000E+000	-3,91995E-001	0,00000E+000	11	...........
	356	14,280000	-5,07477E-003	-3,88191E-001	-8,63448E-005	0,00000E+000	-3,87996E-001	0,00000E+000	11	...........
	358	14,360000	-5,08147E-003	-3,84869E-001	-8,29668E-005	0,00000E+000	-3,83997E-001	0,00000E+000	11	...........
	360	14,440000	-5,08792E-003	-3,81107E-001	-7,95263E-005	0,00000E+000	-3,79998E-001	0,00000E+000	11	...........
	362	14,520000	-5,09407E-003	-3,76167E-001	-7,62039E-005	0,00000E+000	-3,75999E-001	0,00000E+000	11	...........
	364	14,599999	-5,09994E-003	-3,72216E-001	-7,26661E-005	0,00000E+000	-3,72001E-001	0,00000E+000	11	...........
	366	14,679999	-5,10561E-003	-3,69142E-001	-7,04419E-005	0,00000E+000	-3,68002E-001	0,00000E+000	11	...........
	368	14,759999	-5,11101E-003	-3,64329E-001	-6,65149E-005	0,00000E+000	-3,64003E-001	0,00000E+000	11	...........
	370	14,839999	-5,11615E-003	-3,60213E-001	-6,36095E-005	0,00000E+000	-3,60004E-001	0,00000E+000	11	...........
	372	14,920000	-5,12104E-003	-3,56840E-001	-6,06069E-005	0,00000E+000	-3,56005E-001	0,00000E+000	11	...........
	374	15,000000	-5,12574E-003	-3,53217E-001	-5,82507E-005	0,00000E+000	-3,51994E-001	0,00000E+000	11	...........
	376	15,080000	-5,13013E-003	-3,48193E-001	-5,36911E-005	0,00000E+000	-3,47995E-001	0,00000E+000	11	...........
	378	15,160000	-5,13422E-003	-3,44192E-001	-5,05078E-005	0,00000E+000	-3,43996E-001	0,00000E+000	11	...........
	380	15,240000	-5,13812E-003	-3,41152E-001	-4,81863E-005	0,00000E+000	-3,39998E-001	0,00000E+000	11	...........
	382	15,320000	-5,14169E-003	-3,36340E-001	-4,37310E-005	0,00000E+000	-3,35999E-001	0,00000E+000	11	...........
	384	15,400000	-5,14498E-003	-3,32221E-001	-4,01167E-005	0,00000E+000	-3,32000E-001	0,00000E+000	11	...........
	386	15,480000	-5,14804E-003	-3,28870E-001	-3,73712E-005	0,00000E+000	-3,28001E-001	0,00000E+000	11	...........
	388	15,559999	-5,15084E-003	-3,25149E-001	-3,41531E-005	0,00000E+000	-3,24002E-001	0,00000E+000	11	...........
	390	15,639999	-5,15328E-003	-3,20210E-001	-2,97534E-005	0,00000E+000	-3,20004E-001	0,00000E+000	11	...........
	392	15,719999	-5,15547E-003	-3,16202E-001	-2,65909E-005	0,00000E+000	-3,16005E-001	0,00000E+000	11	...........
	394	15,799999	-5,15746E-003	-3,13152E-001	-2,41443E-005	0,00000E+000	-3,12006E-001	0,00000E+000	11	...........
	396	15,880000	-5,15918E-003	-3,08357E-001	-2,03980E-005	0,00000E+000	-3,07995E-001	0,00000E+000	11	...........
	398	15,960000	-5,16061E-003	-3,04194E-001	-1,68115E-005	0,00000E+000	-3,03996E-001	0,00000E+000	11	...........
	400	16,039999	-5,16183E-003	-3,00886E-001	-1,44274E-005	0,00000E+000	-2,99997E-001	0,00000E+000	11	...........
	402	16,119999	-5,16282E-003	-2,97123E-001	-1,14248E-005	0,00000E+000	-2,95998E-001	0,00000E+000	11	...........
	404	16,199999	-5,16349E-003	-2,92196E-001	-7,42824E-006	0,00000E+000	-2,92000E-001	0,00000E+000	11	...........
	406	16,279999	-5,16393E-003	-2,88230E-001	-4,62022E-006	0,00000E+000	-2,88001E-001	0,00000E+000	11	...........
	408	16,359999	-5,16420E-003	-2,85167E-001	-2,67406E-006	0,00000E+000	-2,84002E-001	0,00000E+000	11	...........
	410	16,440001	-5,16411E-003	-2,80363E-001	2,26083E-006	0,00000E+000	-2,80003E-001	0,00000E+000	11	...........
	412	16,520000	-5,16371E-003	-2,76237E-001	6,20874E-006	0,00000E+000	-2,76004E-001	0,00000E+000	11	...........
	414	16,600000	-5,16296E-003	-2,72882E-001	1,01845E-005	0,00000E+000	-2,72005E-001	0,00000E+000	11	...........
	416	16,680000	-5,16179E-003	-2,69260E-001	1,58839E-005	0,00000E+000	-2,67994E-001	0,00000E+000	11	...........
	418	16,760000	-5,16000E-003	-2,64222E-001	2,44122E-005	0,00000E+000	-2,63995E-001	0,00000E+000	11	...........
	420	16,840000	-5,15760E-003	-2,60250E-001	3,15644E-005	0,00000E+000	-2,59997E-001	0,00000E+000	11	...........
	422	16,920000	-5,15471E-003	-2,57188E-001	3,79311E-005	0,00000E+000	-2,55998E-001	0,00000E+000	11	...........
	424	17,000000	-5,15110E-003	-2,52419E-001	4,83221E-005	0,00000E+000	-2,51999E-001	0,00000E+000	11	...........
	426	17,080000	-5,14660E-003	-2,48295E-001	5,91928E-005	0,00000E+000	-2,48000E-001	0,00000E+000	11	...........
	428	17,160000	-5,14121E-003	-2,44864E-001	6,95630E-005	0,00000E+000	-2,44001E-001	0,00000E+000	11	...........
	430	17,240000	-5,13491E-003	-2,41369E-001	8,23103E-005	0,00000E+000	-2,40003E-001	0,00000E+000	11	...........
	432	17,320000	-5,12714E-003	-2,36367E-001	1,01946E-004	0,00000E+000	-2,36004E-001	0,00000E+000	11	...........
	434	17,400000	-5,11788E-003	-2,32369E-001	1,20622E-004	0,00000E+000	-2,32005E-001	0,00000E+000	11	...........
	436	17,480000	-5,10719E-003	-2,29031E-001	1,39256E-004	0,00000E+000	-2,28006E-001	0,00000E+000	11	...........
	438	17,559999	-5,09459E-003	-2,25106E-001	1,65077E-004	0,00000E+000	-2,23995E-001	0,00000E+000	11	...........
	440	17,639999	-5,07937E-003	-2,20276E-001	1,97995E-004	0,00000E+000	-2,19996E-001	0,00000E+000	11	...........
	442	17,719999	-5,06171E-003	-2,16818E-001	2,27674E-004	0,00000E+000	-2,15997E-001	0,00000E+000	11	...........
	444	17,799999	-5,04140E-003	-2,13340E-001	2,62608E-004	0,00000E+000	-2,11998E-001	0,00000E+000	11	...........
	446	17,879999	-5,01712E-003	-2,08249E-001	3,16057E-004	0,00000E+000	-2,08000E-001	0,00000E+000	11	...........
	448	17,959999	-4,98884E-003	-2,04235E-001	3,67019E-004	0,00000E+000	-2,04001E-001	0,00000E+000	11	...........
	450	18,039999	-4,95669E-003	-2,01077E-001	4,15791E-004	0,00000E+000	-2,00002E-001	0,00000E+000	11	...........
	452	18,119999	-4,91912E-003	-1,96392E-001	4,92268E-004	0,00000E+000	-1,96003E-001	0,00000E+000	11	...........
	454	18,199999	-4,87519E-003	-1,92176E-001	5,67779E-004	0,00000E+000	-1,92004E-001	0,00000E+000	11	...........
	456	18,279999	-4,82530E-003	-1,88776E-001	6,39578E-004	0,00000E+000	-1,88006E-001	0,00000E+000	11	...........
	458	18,359999	-4,76915E-003	-1,85208E-001	7,23735E-004	0,00000E+000	-1,83994E-001	0,00000E+000	11	...........
	460	18,440001	-4,70376E-003	-1,80142E-001	8,44362E-004	0,00000E+000	-1,79996E-001	0,00000E+000	11	...........
	462	18,520000	-4,62964E-003	-1,76158E-001	9,54090E-004	0,00000E+000	-1,75997E-001	0,00000E+000	11	...........
	464	18,600000	-4,54756E-003	-1,73059E-001	1,05322E-003	0,00000E+000	-1,71998E-001	0,00000E+000	11	...........
	466	18,680000	-4,45502E-003	-1,68361E-001	1,20083E-003	0,00000E+000	-1,67999E-001	0,00000E+000	11	...........
	468	18,760000	-4,35043E-003	-1,64166E-001	1,34238E-003	0,00000E+000	-1,64000E-001	0,00000E+000	11	...........
	470	18,840000	-4,23558E-003	-1,60834E-001	1,46757E-003	0,00000E+000	-1,60002E-001	0,00000E+000	11	...........
	472	18,920000	-4,10966E-003	-1,57169E-001	1,61305E-003	0,00000E+000	-1,56003E-001	0,00000E+000	11	...........
	474	19,000000	-3,96852E-003	-1,52153E-001	1,80680E-003	0,00000E+000	-1,52004E-001	0,00000E+000	11	...........
	476	19,080000	-3,81385E-003	-1,48168E-001	1,97654E-003	0,00000E+000	-1,48005E-001	0,00000E+000	11	...........
	478	19,160000	-3,64722E-003	-1,45063E-001	2,12340E-003	0,00000E+000	-1,43994E-001	0,00000E+000	11	...........
	480	19,240000	-3,46556E-003	-1,40479E-001	2,33327E-003	0,00000E+000	-1,39995E-001	0,00000E+000	11	...........
	482	19,320000	-3,26660E-003	-1,36284E-001	2,53580E-003	0,00000E+000	-1,35996E-001	0,00000E+000	11	...........
	484	19,400000	-3,05254E-003	-1,32908E-001	2,71476E-003	0,00000E+000	-1,31997E-001	0,00000E+000	11	...........
	486	19,480000	-2,82359E-003	-1,29447E-001	2,91083E-003	0,00000E+000	-1,27999E-001	0,00000E+000	11	...........
	488	19,559999	-2,57368E-003	-1,24320E-001	3,18968E-003	0,00000E+000	-1,24000E-001	0,00000E+000	11	...........
	490	19,639999	-2,30364E-003	-1,20335E-001	3,44009E-003	0,00000E+000	-1,20001E-001	0,00000E+000	11	...........
	492	19,719999	-2,01471E-003	-1,17099E-001	3,67577E-003	0,00000E+000	-1,16002E-001	0,00000E+000	11	...........
	494	19,799999	-1,70476E-003	-1,12624E-001	3,95201E-003	0,00000E+000	-1,12003E-001	0,00000E+000	11	...........
	496	19,879999	-1,38331E-003	-1,08145E-001	3,99550E-003	0,00000E+000	-1,08005E-001	0,00000E+000	11	...........
	498	19,959999	-1,09000E-003	-1,04646E-001	3,51307E-003	0,00000E+000	-1,04006E-001	0,00000E+000	11	...........
	500	20,039999	-8,60912E-004	-1,01047E-001	2,61404E-003	0,00000E+000	-9,99945E-002	0,00000E+000	11	...........
	502	20,119999	-7,08024E-004	-9,59298E-002	1,68743E-003	0,00000E+000	-9,59958E-002	0,00000E+000	11	...........
	504	20,199999	-6,18932E-004	-9,18879E-002	9,46980E-004	0,00000E+000	-9,19969E-002	0,00000E+000	11	...........
	506	20,279999	-5,72580E-004	-8,85581E-002	4,82669E-004	0,00000E+000	-8,79982E-002	0,00000E+000	11	...........
	508	20,359999	-5,46122E-004	-8,43559E-002	2,98236E-004	0,00000E+000	-8,39993E-002	0,00000E+000	11	...........
	510	20,439999	-5,26978E-004	-8,00482E-002	2,23921E-004	0,00000E+000	-8,00005E-002	0,00000E+000	11	...........
	512	20,520000	-5,11723E-004	-7,66647E-002	1,80793E-004	0,00000E+000	-7,60017E-002	0,00000E+000	11	...........
	514	20,600000	-4,98902E-004	-7,31167E-002	1,53699E-004	0,00000E+000	-7,20029E-002	0,00000E+000	11	...........
	516	20,680000	-4,87687E-004	-6,82699E-002	1,36254E-004	0,00000E+000	-6,80041E-002	0,00000E+000	11	...........
	518	20,760000	-4,77740E-004	-6,41724E-002	1,20754E-004	0,00000E+000	-6,40053E-002	0,00000E+000	11	...........
	520	20,840000	-4,68923E-004	-6,09641E-002	1,07499E-004	0,00000E+000	-5,99940E-002	0,00000E+000	11	...........
	522	20,920000	-4,60841E-004	-5,65819E-002	9,98257E-005	0,00000E+000	-5,59952E-002	0,00000E+000	11	...........
	524	21,000000	-4,53382E-004	-5,21718E-002	9,10194E-005	0,00000E+000	-5,19964E-002	0,00000E+000	11	...........
	526	21,080000	-4,46544E-004	-4,87892E-002	8,35892E-005	0,00000E+000	-4,79976E-002	0,00000E+000	11	...........
	528	21,160000	-4,40220E-004	-4,52484E-002	7,75770E-005	0,00000E+000	-4,39988E-002	0,00000E+000	11	...........
	530	21,240000	-4,34162E-004	-4,01596E-002	7,40948E-005	0,00000E+000	-4,00000E-002	0,00000E+000	11	...........
	532	21,320000	-4,28516E-004	-3,61622E-002	6,97159E-005	0,00000E+000	-3,60012E-002	0,00000E+000	11	...........
	534	21,400000	-4,23246E-004	-3,30823E-002	6,46559E-005	0,00000E+000	-3,20024E-002	0,00000E+000	11	...........
	536	21,480000	-4,18116E-004	-2,83803E-002	6,45030E-005	0,00000E+000	-2,80036E-002	0,00000E+000	11	...........
	538	21,559999	-4,13207E-004	-2,41716E-002	6,10069E-005	0,00000E+000	-2,40048E-002	0,00000E+000	11	...........
	540	21,639999	-4,08572E-004	-2,06966E-002	5,61624E-005	0,00000E+000	-2,00060E-002	0,00000E+000	11	...........
	542	21,719999	-4,04153E-004	-1,71523E-002	5,44525E-005	0,00000E+000	-1,59947E-002	0,00000E+000	11	...........
	544	21,799999	-3,99796E-004	-1,22438E-002	5,44525E-005	0,00000E+000	-1,19959E-002	0,00000E+000	11	...........
	546	21,879999	-3,95579E-004	-8,15381E-003	5,20893E-005	0,00000E+000	-7,99710E-003	0,00000E+000	11	...........
	548	21,959999	-3,91554E-004	-4,79493E-003	4,92118E-005	0,00000E+000	-3,99831E-003	0,00000E+000	11	...........
	550	22,039999	-3,87684E-004	-1,28716E-003	4,81762E-005	0,00000E+000	5,06639E-007	0,00000E+000	11	...........
CURVE2	TABLE
	Pt	T	Q	Vf	Im	Vu	Sig	ACH	IERange	Over
	#	s	C	V vs. Ref.	A	V	V	V	#	bits
	551	22,080000	1,63596E-006	-2,43223E-003	4,08989E-005	0,00000E+000	-1,99890E-003	0,00000E+000	11	...........
	553	22,160000	4,23061E-006	-6,16876E-003	3,05218E-005	0,00000E+000	-5,99772E-003	0,00000E+000	11	...........
	555	22,240000	6,29313E-006	-1,08548E-002	2,50100E-005	0,00000E+000	-9,99650E-003	0,00000E+000	11	...........
	557	22,320000	8,14269E-006	-1,50797E-002	2,29040E-005	0,00000E+000	-1,39953E-002	0,00000E+000	11	...........
	559	22,400000	9,88826E-006	-1,81508E-002	2,10968E-005	0,00000E+000	-1,79941E-002	0,00000E+000	11	...........
	561	22,480000	1,13886E-005	-2,27381E-002	1,81845E-005	0,00000E+000	-2,20054E-002	0,00000E+000	11	...........
	563	22,559999	1,26830E-005	-2,73042E-002	1,57240E-005	0,00000E+000	-2,60042E-002	0,00000E+000	11	...........
	565	22,639999	1,40157E-005	-3,01812E-002	1,60785E-005	0,00000E+000	-3,00030E-002	0,00000E+000	11	...........
	567	22,719999	1,51440E-005	-3,41633E-002	1,38543E-005	0,00000E+000	-3,40018E-002	0,00000E+000	11	...........
	569	22,799999	1,61239E-005	-3,90593E-002	1,22210E-005	0,00000E+000	-3,80006E-002	0,00000E+000	11	...........
	571	22,879999	1,71547E-005	-4,23955E-002	1,36875E-005	0,00000E+000	-4,19994E-002	0,00000E+000	11	...........
	573	22,959999	1,80974E-005	-4,61650E-002	1,10394E-005	0,00000E+000	-4,59982E-002	0,00000E+000	11	...........
	575	23,039999	1,88701E-005	-5,08866E-002	9,86473E-006	0,00000E+000	-4,99970E-002	0,00000E+000	11	...........
	577	23,119999	1,96732E-005	-5,49681E-002	1,07127E-005	0,00000E+000	-5,39958E-002	0,00000E+000	11	...........
	579	23,199999	2,04997E-005	-5,81513E-002	9,73962E-006	0,00000E+000	-5,79946E-002	0,00000E+000	11	...........
	581	23,279999	2,12168E-005	-6,27427E-002	8,37036E-006	0,00000E+000	-6,20059E-002	0,00000E+000	11	...........
	583	23,359999	2,19026E-005	-6,72816E-002	8,59278E-006	0,00000E+000	-6,60047E-002	0,00000E+000	11	...........
	585	23,439999	2,26395E-005	-7,01657E-002	8,80825E-006	0,00000E+000	-7,00035E-002	0,00000E+000	11	...........
	587	23,519999	2,32532E-005	-7,42780E-002	7,48069E-006	0,00000E+000	-7,40023E-002	0,00000E+000	11	...........
	589	23,600000	2,38303E-005	-7,90937E-002	6,84124E-006	0,00000E+000	-7,80011E-002	0,00000E+000	11	...........
	591	23,680000	2,44329E-005	-8,23508E-002	7,94638E-006	0,00000E+000	-8,19999E-002	0,00000E+000	11	...........
	593	23,760000	2,50344E-005	-8,61712E-002	7,29303E-006	0,00000E+000	-8,59987E-002	0,00000E+000	11	...........
	595	23,840000	2,55094E-005	-9,08997E-002	6,10448E-006	0,00000E+000	-8,99975E-002	0,00000E+000	11	...........
	597	23,920000	2,60228E-005	-9,49307E-002	6,95245E-006	0,00000E+000	-9,39963E-002	0,00000E+000	11	...........
	599	24,000000	2,65404E-005	-9,81567E-002	6,38251E-006	0,00000E+000	-9,79951E-002	0,00000E+000	11	...........
	601	24,080000	2,70268E-005	-1,02778E-001	5,31212E-006	0,00000E+000	-1,01994E-001	0,00000E+000	11	...........
	603	24,160000	2,74718E-005	-1,07324E-001	5,27737E-006	0,00000E+000	-1,06005E-001	0,00000E+000	11	...........
	605	24,240000	2,79854E-005	-1,10183E-001	6,20179E-006	0,00000E+000	-1,10004E-001	0,00000E+000	11	...........
	607	24,320000	2,84029E-005	-1,14241E-001	4,71437E-006	0,00000E+000	-1,14003E-001	0,00000E+000	11	...........
	609	24,400000	2,87903E-005	-1,19094E-001	5,16616E-006	0,00000E+000	-1,18002E-001	0,00000E+000	11	...........
	611	24,480000	2,92103E-005	-1,22379E-001	5,42333E-006	0,00000E+000	-1,22000E-001	0,00000E+000	11	...........
	613	24,559999	2,96011E-005	-1,26165E-001	4,69352E-006	0,00000E+000	-1,25999E-001	0,00000E+000	11	...........
	615	24,639999	2,99043E-005	-1,30893E-001	3,97067E-006	0,00000E+000	-1,29998E-001	0,00000E+000	11	...........
	617	24,719999	3,02511E-005	-1,34988E-001	4,70047E-006	0,00000E+000	-1,33997E-001	0,00000E+000	11	...........
	619	24,799999	3,06305E-005	-1,38150E-001	4,65182E-006	0,00000E+000	-1,37996E-001	0,00000E+000	11	...........
	621	24,879999	3,09401E-005	-1,42771E-001	3,57448E-006	0,00000E+000	-1,41994E-001	0,00000E+000	11	...........
	623	24,959999	3,12174E-005	-1,47313E-001	3,37292E-006	0,00000E+000	-1,46006E-001	0,00000E+000	11	...........
	625	25,039999	3,15454E-005	-1,50190E-001	3,90116E-006	0,00000E+000	-1,50005E-001	0,00000E+000	11	...........
	627	25,119999	3,18224E-005	-1,54227E-001	3,24086E-006	0,00000E+000	-1,54003E-001	0,00000E+000	11	...........
	629	25,199999	3,19972E-005	-1,59096E-001	2,15657E-006	0,00000E+000	-1,58002E-001	0,00000E+000	11	...........
	631	25,279999	3,22045E-005	-1,62372E-001	3,15050E-006	0,00000E+000	-1,62001E-001	0,00000E+000	11	...........
	633	25,359999	3,23269E-005	-1,66184E-001	1,21825E-006	0,00000E+000	-1,66000E-001	0,00000E+000	11	...........
	635	25,439999	3,23821E-005	-1,70908E-001	8,29016E-007	0,00000E+000	-1,69999E-001	0,00000E+000	11	...........
	637	25,519999	3,24104E-005	-1,74919E-001	4,25884E-007	0,00000E+000	-1,73997E-001	0,00000E+000	11	...........
	639	25,599998	3,24264E-005	-1,78157E-001	-1,78815E-007	0,00000E+000	-1,77996E-001	0,00000E+000	11	...........
	641	25,680000	3,23134E-005	-1,82769E-001	-1,96511E-006	0,00000E+000	-1,81995E-001	0,00000E+000	11	...........
	643	25,760000	3,21300E-005	-1,87307E-001	-2,43774E-006	0,00000E+000	-1,85994E-001	0,00000E+000	11	...........
	645	25,840000	3,20076E-005	-1,90192E-001	-1,43686E-006	0,00000E+000	-1,90005E-001	0,00000E+000	11	...........
	647	25,920000	3,18078E-005	-1,94350E-001	-2,92428E-006	0,00000E+000	-1,94004E-001	0,00000E+000	11	...........
	649	26,000000	3,15386E-005	-1,99111E-001	-3,63324E-006	0,00000E+000	-1,98003E-001	0,00000E+000	11	...........
	651	26,080000	3,13007E-005	-2,02358E-001	-2,59066E-006	0,00000E+000	-2,02001E-001	0,00000E+000	11	...........
	653	26,160000	3,10257E-005	-2,06182E-001	-4,13368E-006	0,00000E+000	-2,06000E-001	0,00000E+000	11	...........
	655	26,240000	3,06583E-005	-2,10888E-001	-4,57851E-006	0,00000E+000	-2,09999E-001	0,00000E+000	11	...........
	657	26,320000	3,02561E-005	-2,14906E-001	-4,55766E-006	0,00000E+000	-2,13998E-001	0,00000E+000	11	...........
	659	26,400000	2,99176E-005	-2,18174E-001	-4,20318E-006	0,00000E+000	-2,17997E-001	0,00000E+000	11	...........
	661	26,480000	2,95463E-005	-2,22756E-001	-4,97470E-006	0,00000E+000	-2,21995E-001	0,00000E+000	11	...........
	663	26,559999	2,91300E-005	-2,27267E-001	-5,08590E-006	0,00000E+000	-2,25994E-001	0,00000E+000	11	...........
	665	26,639999	2,87471E-005	-2,30180E-001	-4,58546E-006	0,00000E+000	-2,30006E-001	0,00000E+000	11	...........
	667	26,719999	2,82793E-005	-2,34329E-001	-6,22579E-006	0,00000E+000	-2,34004E-001	0,00000E+000	11	...........
	669	26,799999	2,77362E-005	-2,39086E-001	-6,92085E-006	0,00000E+000	-2,38003E-001	0,00000E+000	11	...........
	671	26,879999	2,71700E-005	-2,42344E-001	-6,64978E-006	0,00000E+000	-2,42002E-001	0,00000E+000	11	...........
	673	26,959999	2,65569E-005	-2,46181E-001	-8,17195E-006	0,00000E+000	-2,46001E-001	0,00000E+000	11	...........
	675	27,039999	2,58411E-005	-2,50905E-001	-9,11027E-006	0,00000E+000	-2,50000E-001	0,00000E+000	11	...........
	677	27,119999	2,50533E-005	-2,54874E-001	-9,57596E-006	0,00000E+000	-2,53998E-001	0,00000E+000	11	...........
[...]
	387	107,592500	10,01111050	10,01856890	0,000	1,10669756	1,54176641
	388	108,547000	10,01108789	10,01853049	0,000	1,10673165	1,54184115
	389	109,394000	10,01105738	10,01848218	0,000	1,10795963	1,54372644
	390	109,742500	10,01105558	10,01848018	0,000	1,10798848	1,54378736
	391	110,166500	10,01105538	10,01847858	0,000	1,10798085	1,54379332
	392	110,631500	10,01105498	10,01847718	0,000	1,10797167	1,54383934
	393	110,951500	10,01105438	10,01847558	0,000	1,10791445	1,54383004
	394	111,354000	10,01105338	10,01847418	0,000	1,10791969	1,54384196
	395	111,809500	10,01105338	10,01847298	0,000	1,10793149	1,54388356
	396	112,142000	10,01105098	10,01847218	0,000	1,10791385	1,54393804
	397	112,422000	10,01105098	10,01847078	0,000	1,10788584	1,54391396
	398	112,718000	10,01105078	10,01846998	0,000	1,10790026	1,54394805
	399	113,014000	10,01104958	10,01846918	0,000	1,10793543	1,54398811
	400	113,294000	10,01104938	10,01846818	0,000	1,10793388	1,54399991
	401	113,582000	10,01104918	10,01846698	0,000	1,10790229	1,54398096
	402	113,894000	10,01104778	10,01846618	0,000	1,10792816	1,54398060
	403	114,205500	10,01104678	10,01846198	0,000	1,10786498	1,54399621
	404	114,485000	10,01103658	10,01844998	0,000	1,10786819	1,54399657
	405	114,886000	10,01102118	10,01843398	0,000	1,10788047	1,54399824
	406	115,302000	10,01097938	10,01838918	0,000	1,10791945	1,54406822
	407	115,604000	10,01094858	10,01835678	0,000	1,10792637	1,54401052
	408	115,939500	10,01091198	10,01831898	0,000	1,10794437	1,54406536
	409	116,268500	10,01085558	10,01825858	0,000	1,10794532	1,54406929
	410	116,644500	10,01080818	10,01820998	0,000	1,10793638	1,54408264
	411	117,036000	10,01071938	10,01811678	0,000	1,10795450	1,54416227
	412	117,572000	10,01064878	10,01804398	0,000	1,10797131	1,54425478
	413	118,364000	10,01046358	10,01785078	0,000	1,10800231	1,54438674
	414	118,931500	10,01023638	10,01762058	0,000	1,10806978	1,54455245
	415	119,219000	10,01015618	10,01754158	0,000	1,10810208	1,54460025
	416	119,491500	10,01008738	10,01747318	0,000	1,10816407	1,54466152
	417	119,756000	10,01002418	10,01741038	0,000	1,10820532	1,54469800
	418	120,012000	10,00996018	10,01735418	0,000	1,10822153	1,54475749
	419	120,268000	10,00990138	10,01730238	0,000	1,10703671	1,54302800
	420	120,524000	10,00984918	10,01725198	0,000	1,10704768	1,54301226
	421	120,787500	10,00979958	10,01720258	0,000	1,10708916	1,54310441
	422	121,155000	10,00974958	10,01715398	0,000	1,10706210	1,54302061
	423	121,611000	10,00966998	10,01707498	0,000	1,10707676	1,54300272
	424	121,979500	10,00959938	10,01700798	0,000	1,10710704	1,54303360
	425	122,273000	10,00958998	10,01700358	0,000	1,10690057	1,54293144
	426	122,545000	10,00958908	10,01700908	0,000	1,10786736	1,54464209
	427	122,851500	10,00955028	10,01697008	0,000	1,10791051	1,54466283
	428	123,178500	10,00950148	10,01692388	0,000	1,10790443	1,54463887
	429	123,490000	10,00946428	10,01688588	0,000	1,10794437	1,54466474
	430	123,785500	10,00942408	10,01684768	0,000	1,10797906	1,54464674
	431	124,050000	10,00939308	10,01681668	0,000	1,10799134	1,54466665
	432	124,314000	10,00936288	10,01678648	0,000	1,10804021	1,54469585
	433	124,577500	10,00933308	10,01675848	0,000	1,10806274	1,54472589
	434	124,865500	10,00930508	10,01673068	0,000	1,10808384	1,54469323
	435	125,168500	10,00927568	10,01670108	0,000	1,10804963	1,54469419
	436	125,512500	10,00924448	10,01667088	0,000	1,10808456	1,54465544
	437	125,880500	10,00921008	10,01663728	0,000	1,10810661	1,54469538
	438	126,224000	10,00918028	10,01660948	0,000	1,10811210	1,54465640
	439	126,528000	10,00915448	10,01658408	0,000	1,10814881	1,54466486
	440	126,936000	10,00913528	10,01656528	0,000	1,10818756	1,54469502
	441	127,344500	10,00910188	10,01653188	0,000	1,10816824	1,54460371
	442	127,720000	10,00908648	10,01651848	0,000	1,10818779	1,54459119
	443	128,095000	10,00906508	10,01649808	0,000	1,10818112	1,54460335
	444	128,423000	10,00905408	10,01648848	0,000	1,10825658	1,54459286
	445	128,751000	10,00904208	10,01647608	0,000	1,10821056	1,54456055
	446	129,015000	10,00903428	10,01646928	0,000	1,10823929	1,54454935
	447	129,280000	10,00902688	10,01646348	0,000	1,10827768	1,54451764
	448	129,607500	10,00902168	10,01645868	0,000	1,10828066	1,54458249
	449	129,942500	10,00901608	10,01645368	0,000	1,10830140	1,54454303
	450	130,222500	10,00901328	10,01645148	0,000	1,10829663	1,54452407
	451	130,494000	10,00901088	10,01645028	0,000	1,10831285	1,54451084
	452	130,758000	10,00901088	10,01645108	0,000	1,10832560	1,54450023
	453	131,022000	10,00901248	10,01645408	0,000	1,10833371	1,54447818
	454	131,286000	10,00901628	10,01645928	0,000	1,10833347	1,54446709
	455	131,550000	10,00902428	10,01646968	0,000	1,10833871	1,54449117
	456	131,814000	10,00903908	10,01648748	0,000	1,10837650	1,54445589
	457	132,077500	10,00906548	10,01651808	0,000	1,10837638	1,54443526
	458	132,349000	10,00910728	10,01656988	0,000	1,10840261	1,54435325
	459	132,613000	10,00917568	10,01665248	0,000	1,10844493	1,54429328
	460	132,885000	10,00928548	10,01677788	0,000	1,10850847	1,54412878
	461	133,157000	10,00945188	10,01696948	0,000	1,10858178	1,54399455
	462	133,423500	10,00967748	10,01722568	0,000	1,10863745	1,54376709
	463	133,687500	10,00997648	10,01755768	0,000	1,10874236	1,54350770
	464	133,948500	10,01035568	10,01797228	0,000	1,10882759	1,54312003
	465	134,220000	10,01081348	10,01843228	0,000	1,10887516	1,54275560
	466	134,492000	10,01106128	10,01855248	0,000	1,10870671	1,54304135
	467	134,756000	10,01108268	10,01855668	0,000	1,10844171	1,54327011
	468	135,044000	10,01109208	10,01855948	0,000	1,10707617	1,54163361
	469	135,356000	10,01106770	10,01851910	0,000	1,10708332	1,54162192
	470	135,684000	10,01107350	10,01852330	0,000	1,10699773	1,54167140
	471	135,995500	10,01108010	10,01852530	0,000	1,10701394	1,54183495
	472	136,275000	10,01108390	10,01852730	0,000	1,10691977	1,54177690
	473	136,563000	10,01108470	10,01852590	0,000	1,10689569	1,54184639
	474	136,851500	10,01108430	10,01852530	0,000	1,10685349	1,54185092
	475	137,132000	10,01108410	10,01852390	0,000	1,10680735	1,54183948
	476	137,420000	10,01108310	10,01852290	0,000	1,10680532	1,54188669
	477	137,708000	10,01108310	10,01852070	0,000	1,10681963	1,54193270
	478	138,060000	10,01108230	10,01852050	0,000	1,10680032	1,54196823
	479	138,427500	10,01108190	10,01851890	0,000	1,10676968	1,54196501
	480	138,715000	10,01108110	10,01851850	0,000	1,10678387	1,54204905
	481	138,987000	10,01108110	10,01851730	0,000	1,10675180	1,54198253
	482	139,259000	10,01108090	10,01851630	0,000	1,10673785	1,54204869
	483	139,531000	10,01108090	10,01851430	0,000	1,10678220	1,54209721
	484	139,803000	10,01107950	10,01851390	0,000	1,10678613	1,54212356
	485	140,194500	10,01107850	10,01851390	0,000	1,10676146	1,54209757
	486	140,586000	10,01107850	10,01851270	0,000	1,10681522	1,54225326
	487	140,953500	10,01107750	10,01851150	0,000	1,10682011	1,54224837
	488	141,321500	10,01107570	10,01851130	0,000	1,10679960	1,54227924
	489	141,593500	10,01107650	10,01850970	0,000	1,10685384	1,54232323
	490	142,033000	10,01107550	10,01850910	0,000	1,10681844	1,54229426
	491	142,465000	10,01106530	10,01849250	0,000	1,10683966	1,54232895
	492	142,736500	10,01104950	10,01847610	0,000	1,10687876	1,54236460
	493	143,032500	10,01102910	10,01845470	0,000	1,10688090	1,54240394
	494	143,320500	10,01100230	10,01842730	0,000	1,10694849	1,54241312
	495	143,592000	10,01097290	10,01839690	0,000	1,10697114	1,54246545
	496	143,864000	10,01093930	10,01836210	0,000	1,10697770	1,54245830
	497	144,136000	10,01090150	10,01832130	0,000	1,10695672	1,54246366
	498	144,408000	10,01085790	10,01827550	0,000	1,10699654	1,54249513
	499	144,687500	10,01081070	10,01822470	0,000	1,10698509	1,54251218
	500	144,967000	10,01075410	10,01816550	0,000	1,10698891	1,54255795
	501	145,239000	10,01069450	10,01810390	0,000	1,10697830	1,54261446
	502	145,511000	10,01063170	10,01803790	0,000	1,10702407	1,54269826
	503	145,783000	10,01056410	10,01796730	0,000	1,10701764	1,54267085
	504	146,079000	10,01049210	10,01789210	0,000	1,10702777	1,54278767
	505	146,399000	10,01040390	10,01780010	0,000	1,10704958	1,54285765
	506	146,711000	10,01031270	10,01770930	0,000	1,10705829	1,54295242
	507	146,990500	10,01022770	10,01762450	0,000	1,10707927	1,54293084
	508	147,254000	10,01015550	10,01755190	0,000	1,10709107	1,54298997
	509	147,526000	10,01008610	10,01748290	0,000	1,10711908	1,54304445
	510	147,798000	10,01002090	10,01741690	0,000	1,10715210	1,54304028
	511	148,070000	10,00995690	10,01735670	0,000	1,10714579	1,54306781
	512	148,342000	10,00989850	10,01729770	0,000	1,10718203	1,54306042
	513	148,614000	10,00984250	10,01724370	0,000	1,10717058	1,54302514
	514	148,901500	10,00978830	10,01718930	0,000	1,10726810	1,54315412
	515	149,245000	10,00972810	10,01713790	0,000	1,10730779	1,54310346
	516	149,565000	10,00965870	10,01707670	0,000	1,10848522	1,54492664
	517	149,821000	10,00961450	10,01703370	0,000	1,10850704	1,54493439
	518	150,077000	10,00957370	10,01699270	0,000	1,10853350	1,54492640
	519	150,333000	10,00953410	10,01695390	0,000	1,10853088	1,54492605
	520	150,597000	10,00949570	10,01691690	0,000	1,10855651	1,54490554
	521	150,860500	10,00945930	10,01688070	0,000	1,10856903	1,54488325
	522	151,116000	10,00942350	10,01684650	0,000	1,10860133	1,54494810
	523	151,404000	10,00938770	10,01681190	0,000	1,10860252	1,54494810
	524	151,724000	10,00934870	10,01677210	0,000	1,10863304	1,54491413
	525	152,012000	10,00930870	10,01673350	0,000	1,10866261	1,54490137
	526	152,268000	10,00927750	10,01670330	0,000	1,10863388	1,54488230
	527	152,524000	10,00924910	10,01667390	0,000	1,10866690	1,54490113
	528	152,787500	10,00925869	10,01668829	0,000	1,10716426	1,54302490
	529	153,059000	10,00926627	10,01670367	0,000	1,10697794	1,54299355
	530	153,331000	10,00923987	10,01667607	0,000	1,10699010	1,54297364
	531	153,603000	10,00921467	10,01665087	0,000	1,10696852	1,54292393
	532	153,875000	10,00918907	10,01662707	0,000	1,10698700	1,54295456
	533	154,147000	10,00916667	10,01660407	0,000	1,10707498	1,54295790
	534	154,419500	10,00914567	10,01658327	0,000	1,10702336	1,54291725
	535	154,683500	10,00912407	10,01656327	0,000	1,10697877	1,54285848
	536	154,947000	10,00910467	10,01654567	0,000	1,10694504	1,54280770
	537	155,219000	10,00908847	10,01652907	0,000	1,10699928	1,54284048
	538	155,491000	10,00907287	10,01651387	0,000	1,10704172	1,54282796
	539	155,763000	10,00905907	10,01650087	0,000	1,10704422	1,54284751
	540	156,035000	10,00904647	10,01648907	0,000	1,10707581	1,54284370
	541	156,307000	10,00903607	10,01647907	0,000	1,10706031	1,54279613
	542	156,635000	10,00902487	10,01647047	0,000	1,10707653	1,54281557
	543	156,962500	10,00901447	10,01645927	0,000	1,10708129	1,54277825
	544	157,234000	10,00900647	10,01645407	0,000	1,10710895	1,54279995
	545	157,642000	10,00900167	10,01644827	0,000	1,10712063	1,54276776
	546	158,049500	10,00899427	10,01644147	0,000	1,10715580	1,54275692
	547	158,321000	10,00899147	10,01643967	0,000	1,10715413	1,54272127
	548	158,617000	10,00898987	10,01643927	0,000	1,10713601	1,54272211
	549	158,937500	10,00899087	10,01644047	0,000	1,10715687	1,54267454
	550	159,233000	10,00899407	10,01644627	0,000	1,10716689	1,54272056
	551	159,504000	10,00900247	10,01645507	0,000	1,10716867	1,54265070
	552	159,808000	10,00901507	10,01647227	0,000	1,10717607	1,54262924
	553	160,112000	10,00904647	10,01651027	0,000	1,10722804	1,54262769
	554	160,384000	10,00909187	10,01656507	0,000	1,10724962	1,54256010
	555	160,945000	10,00916627	10,01665467	0,000	1,10722625	1,54246283
	556	161,560500	10,00972827	10,01729747	0,000	1,10753393	1,54196060
	557	161,879000	10,01020947	10,01782807	0,000	1,10768020	1,54156971
	558	162,143000	10,01065227	10,01830747	0,000	1,10783887	1,54119647
	559	162,423000	10,01104587	10,01858227	0,000	1,10776258	1,54121280
	560	162,807000	10,01110647	10,01859827	0,000	1,10744715	1,54150069
	561	163,295000	10,01107918	10,01854678	0,000	1,10735166	1,54175150
	562	163,806500	10,01104779	10,01849059	0,000	1,10746467	1,54183054
	563	164,222000	10,01105639	10,01849719	0,000	1,10738742	1,54192424
	564	164,510000	10,01105739	10,01849539	0,000	1,10731769	1,54197729
	565	164,806000	10,01105699	10,01849499	0,000	1,10728371	1,54197562
	566	165,126000	10,01105539	10,01849319	0,000	1,10736096	1,54218256
	567	165,422000	10,01105559	10,01849179	0,000	1,10725439	1,54205728
	568	165,750000	10,01105539	10,01849019	0,000	1,10722136	1,54202843
	569	166,085500	10,01105539	10,01848799	0,000	1,10720217	1,54207921
	570	166,373000	10,01105399	10,01848719	0,000	1,10718727	1,54214060
	571	166,653000	10,01105299	10,01848659	0,000	1,10716939	1,54218149
	572	166,925000	10,01105319	10,01848579	0,000	1,10715234	1,54215622
	573	167,197000	10,01105199	10,01848539	0,000	1,10714734	1,54216456
	574	167,469000	10,01105199	10,01848439	0,000	1,10715246	1,54219353
	575	167,741000	10,01105139	10,01848279	0,000	1,10717225	1,54224861
	576	168,013000	10,01105159	10,01848179	0,000	1,10715592	1,54223061
	577	168,404500	10,01105059	10,01848119	0,000	1,10712576	1,54223907
	578	168,796000	10,01104999	10,01848059	0,000	1,10711253	1,54226565
	579	169,068000	10,01104919	10,01847979	0,000	1,10712337	1,54226148
	580	169,340000	10,01104779	10,01847899	0,000	1,10707736	1,54225481
	581	169,612000	10,01104819	10,01847739	0,000	1,10712194	1,54226446
	582	170,028000	10,01104719	10,01847659	0,000	1,10713267	1,54229820
	583	170,443500	10,01103759	10,01846019	0,000	1,10714722	1,54237020
	584	170,715000	10,01102079	10,01844559	0,000	1,10712790	1,54233408
	585	170,987000	10,01100239	10,01842539	0,000	1,10712910	1,54231811
	586	171,259000	10,01097979	10,01840079	0,000	1,10714626	1,54236686
	587	171,523000	10,01095299	10,01837259	0,000	1,10718834	1,54236019
	588	171,787000	10,01092119	10,01833899	0,000	1,10719240	1,54237533
	589	172,059500	10,01088399	10,01830079	0,000	1,10720801	1,54242563
	590	172,332000	10,01084299	10,01825739	0,000	1,10721624	1,54240394
	591	172,603500	10,01079699	10,01820919	0,000	1,10720158	1,54241455
	592	172,875000	10,01074519	10,01815519	0,000	1,10721302	1,54253602
	593	173,139000	10,01068899	10,01809519	0,000	1,10725784	1,54255033
	594	173,403000	10,01062659	10,01803059	0,000	1,10728180	1,54263842
	595	173,675000	10,01055979	10,01796059	0,000	1,10732901	1,54269469
	596	173,947000	10,01048899	10,01788699	0,000	1,10732925	1,54268849
	597	174,259000	10,01041299	10,01780919	0,000	1,10731673	1,54278064
	598	174,570500	10,01031219	10,01770479	0,000	1,10732162	1,54281580
	599	174,834000	10,01023339	10,01762579	0,000	1,10736716	1,54288816
	600	175,097500	10,01015779	10,01754979	0,000	1,10738289	1,54292691
	601	175,369000	10,01008359	10,01747619	0,000	1,10741413	1,54299939
	602	175,641500	10,01001359	10,01740799	0,000	1,10742652	1,54301369
	603	175,905500	10,00994219	10,01734639	0,000	1,10750425	1,54308903
	604	176,161000	10,00987739	10,01728839	0,000	1,10751987	1,54317522
	605	176,568500	10,00982079	10,01723319	0,000	1,10755134	1,54317260
	606	176,976000	10,00970719	10,01712219	0,000	1,10761571	1,54319561
	607	177,232000	10,00965959	10,01707419	0,000	1,10758865	1,54315591
	608	177,488000	10,00961239	10,01702879	0,000	1,10762060	1,54317355
	609	177,744000	10,00956839	10,01698539	0,000	1,10762107	1,54318368
	610	178,000000	10,00952579	10,01694379	0,000	1,10769618	1,54318893
	611	178,256000	10,00952178	10,01694658	0,000	1,10867012	1,54491770
	612	178,520000	10,00952048	10,01695008	0,000	1,10845649	1,54482400
	613	178,791500	10,00948068	10,01691268	0,000	1,10844409	1,54481709
	614	179,063000	10,00944168	10,01687448	0,000	1,10845208	1,54480171
	615	179,399000	10,00940568	10,01683788	0,000	1,10849297	1,54484439
	616	179,735000	10,00935328	10,01678668	0,000	1,10853231	1,54488015
	617	179,999000	10,00931948	10,01675368	0,000	1,10852695	1,54484785
	618	180,263000	10,00928768	10,01672168	0,000	1,10853386	1,54483104
	619	180,535000	10,00925528	10,01669028	0,000	1,10855806	1,54483914
	620	180,846500	10,00922548	10,01666088	0,000	1,10861480	1,54487574
	621	181,150000	10,00918988	10,01662368	0,000	1,10860276	1,54483068
	622	181,566000	10,00916068	10,01659808	0,000	1,10863888	1,54486454
	623	182,086000	10,00910888	10,01654608	0,000	1,10872447	1,54491198
	624	182,454000	10,00907168	10,01650788	0,000	1,10878158	1,54482317
	625	182,718000	10,00904908	10,01648888	0,000	1,10869956	1,54480410
	626	182,982000	10,00903128	10,01646908	0,000	1,10870707	1,54481459
	627	183,253500	10,00901288	10,01645348	0,000	1,10874271	1,54483354
	628	183,525000	10,00899628	10,01643928	0,000	1,10876882	1,54479861
	629	183,789000	10,00898288	10,01642588	0,000	1,10873973	1,54478753
	630	184,053000	10,00897108	10,01641328	0,000	1,10879111	1,54477036
	631	184,341000	10,00895948	10,01640368	0,000	1,10877275	1,54474139
	632	184,637000	10,00894908	10,01639308	0,000	1,10876739	1,54474092
	633	184,932500	10,00894008	10,01638508	0,000	1,10877788	1,54469812
	634	185,228000	10,00893188	10,01637788	0,000	1,10881627	1,54470372
	635	185,508000	10,00892248	10,01637488	0,000	1,10883725	1,54475331
	636	185,772000	10,00891488	10,01637188	0,000	1,10886562	1,54479992
	637	186,028000	10,00891168	10,01636928	0,000	1,10885465	1,54477286
	638	186,284000	10,00890928	10,01636768	0,000	1,10886908	1,54476917
	639	186,532000	10,00890828	10,01636648	0,000	1,10888743	1,54474318
	640	186,788000	10,00890808	10,01636728	0,000	1,10887980	1,54471076
	641	187,047000	10,00890948	10,01636948	0,000	1,10888386	1,54472005
	642	187,300000	10,00891288	10,01637508	0,000	1,10887861	1,54471600
	643	187,560000	10,00892028	10,01638548	0,000	1,10889053	1,54468846
	644	187,850000	10,00893308	10,01640168	0,000	1,10895145	1,54467177
	645	188,160000	10,00896328	10,01643708	0,000	1,10897982	1,54468179
	646	188,440000	10,00901688	10,01650088	0,000	1,10901654	1,54464829
	647	188,695000	10,00908888	10,01658628	0,000	1,10904074	1,54451644
	648	188,950000	10,00919908	10,01671268	0,000	1,10906863	1,54440618
	649	189,205000	10,00935928	10,01689748	0,000	1,10910356	1,54423487
	650	189,460000	10,00958048	10,01714568	0,000	1,10920990	1,54405499
	651	189,750000	10,00986948	10,01746468	0,000	1,10930943	1,54379678
	652	190,040000	10,01034908	10,01798868	0,000	1,10939586	1,54335105
	653	190,335000	10,01080208	10,01843668	0,000	1,10948932	1,54300237
	654	190,630000	10,01106928	10,01856668	0,000	1,10802102	1,54155695
	655	191,045000	10,01104655	10,01851935	0,000	1,10787952	1,54169381
	656	191,470000	10,01102357	10,01847137	0,000	1,10786855	1,54188216
	657	191,760000	10,01102817	10,01847477	0,000	1,10780048	1,54190624
	658	192,035000	10,01103337	10,01847897	0,000	1,10772789	1,54196095
	659	192,300000	10,01103757	10,01847977	0,000	1,10772276	1,54203415
	660	192,575000	10,01103817	10,01847977	0,000	1,10769403	1,54210126
	661	192,835000	10,01103797	10,01847817	0,000	1,10770738	1,54218280
	662	193,100000	10,01103777	10,01847677	0,000	1,10765016	1,54216242
	663	193,365000	10,01103757	10,01847497	0,000	1,10764635	1,54219961
	664	193,625000	10,01103617	10,01847437	0,000	1,10760188	1,54222322
	665	193,900000	10,01103577	10,01847277	0,000	1,10760427	1,54224682
	666	194,175000	10,01103537	10,01847177	0,000	1,10757303	1,54222715
	667	194,435000	10,01103437	10,01847117	0,000	1,10754704	1,54228377
	668	194,700000	10,01103557	10,01846977	0,000	1,10756242	1,54227316
	669	194,965000	10,01103357	10,01846917	0,000	1,10756910	1,54232109
	670	195,225000	10,01103397	10,01846817	0,000	1,10756707	1,54234588
	671	195,495000	10,01103277	10,01846797	0,000	1,10755789	1,54236102
	672	195,760000	10,01103257	10,01846717	0,000	1,10756052	1,54239941
	673	196,025000	10,01103237	10,01846557	0,000	1,10760045	1,54243958
	674	196,300000	10,01103117	10,01846517	0,000	1,10760438	1,54245186
	675	196,565000	10,01103197	10,01846357	0,000	1,10759032	1,54247129
	676	196,825000	10,01103037	10,01846457	0,000	1,10759473	1,54254377
	677	197,095000	10,01102977	10,01846317	0,000	1,10758650	1,54251719
	678	197,360000	10,01102937	10,01846277	0,000	1,10760522	1,54253745
	679	197,625000	10,01102937	10,01846157	0,000	1,10757542	1,54251647
	680	197,895000	10,01102877	10,01845957	0,000	1,10760581	1,54255414